{
  "resourceType" : "Bundle",
  "id" : "referral-tracking-bundle-001",
  "meta" : {
    "profile" : ["https://dhin.org/2025Connectathon/StructureDefinition/ng-bundle-referral-tracking"]
  },
  "type" : "collection",
  "entry" : [{
    "fullUrl" : "urn:uuid:patient-001",
    "resource" : {
      "resourceType" : "Patient",
      "id" : "patient-001",
      "meta" : {
        "lastUpdated" : "2025-07-30T10:20:00+01:00",
        "profile" : ["https://dhin.org/2025Connectathon/StructureDefinition/NgPatient"]
      },
      "text" : {
        "status" : "generated",
        "div" : "<div xmlns=\"http://www.w3.org/1999/xhtml\"><a name=\"Patient_patient-001\"> </a><p class=\"res-header-id\"><b>Generated Narrative: Patient patient-001</b></p><a name=\"patient-001\"> </a><a name=\"hcpatient-001\"> </a><div style=\"display: inline-block; background-color: #d9e0e7; padding: 6px; margin: 4px; border: 1px solid #8da1b4; border-radius: 5px; line-height: 60%\"><p style=\"margin-bottom: 0px\">Last updated: 2025-07-30 10:20:00+0100</p><p style=\"margin-bottom: 0px\">Profile: <a href=\"StructureDefinition-NgPatient.html\">NG Patient</a></p></div><p style=\"border: 1px #661aff solid; background-color: #e6e6ff; padding: 10px;\">Chinedu Okoro  Male, DoB: 1990-06-15 ( https://nimc.gov.ng#NIN123456789)</p><hr/><table class=\"grid\"><tr><td style=\"background-color: #f3f5da\" title=\"Record is active\">Active:</td><td colspan=\"3\">true</td></tr><tr><td style=\"background-color: #f3f5da\" title=\"Ways to contact the Patient\">Contact Detail</td><td colspan=\"3\">23 Market Road Nsukka Enugu </td></tr><tr><td style=\"background-color: #f3f5da\" title=\"Language spoken\">Language:</td><td colspan=\"3\"><span title=\"Codes:{urn:ietf:bcp:47 ig}\">Igbo</span></td></tr><tr><td style=\"background-color: #f3f5da\" title=\"Patient contact\">Contact:</td><td colspan=\"3\"><ul><li>Ngozi Okoro </li><li>23 Market Road Nsukka Enugu </li><li><a href=\"tel:+2348123456789\">+2348123456789</a></li></ul></td></tr></table></div>"
      },
      "identifier" : [{
        "system" : "https://nimc.gov.ng",
        "value" : "NIN123456789"
      }],
      "active" : true,
      "name" : [{
        "family" : "Okoro",
        "given" : ["Chinedu"]
      }],
      "gender" : "male",
      "birthDate" : "1990-06-15",
      "address" : [{
        "line" : ["23 Market Road"],
        "city" : "Nsukka",
        "district" : "nsukka",
        "state" : "Enugu"
      }],
      "contact" : [{
        "name" : {
          "family" : "Okoro",
          "given" : ["Ngozi"]
        },
        "telecom" : [{
          "system" : "phone",
          "value" : "+2348123456789"
        }],
        "address" : {
          "line" : ["23 Market Road"],
          "city" : "Nsukka",
          "district" : "nsukka",
          "state" : "Enugu"
        }
      }],
      "communication" : [{
        "language" : {
          "coding" : [{
            "system" : "urn:ietf:bcp:47",
            "code" : "ig",
            "display" : "Igbo"
          }]
        }
      }]
    }
  },
  {
    "fullUrl" : "urn:uuid:servicerequest-001",
    "resource" : {
      "resourceType" : "ServiceRequest",
      "id" : "servicerequest-001",
      "meta" : {
        "profile" : ["https://dhin.org/2025Connectathon/StructureDefinition/ng-servicerequest"]
      },
      "text" : {
        "status" : "generated",
        "div" : "<div xmlns=\"http://www.w3.org/1999/xhtml\"><a name=\"ServiceRequest_servicerequest-001\"> </a><p class=\"res-header-id\"><b>Generated Narrative: ServiceRequest servicerequest-001</b></p><a name=\"servicerequest-001\"> </a><a name=\"hcservicerequest-001\"> </a><div style=\"display: inline-block; background-color: #d9e0e7; padding: 6px; margin: 4px; border: 1px solid #8da1b4; border-radius: 5px; line-height: 60%\"><p style=\"margin-bottom: 0px\"/><p style=\"margin-bottom: 0px\">Profile: <a href=\"StructureDefinition-ng-servicerequest.html\">NG ServiceRequest</a></p></div><p><b>status</b>: Active</p><p><b>intent</b>: Order</p><p><b>code</b>: <span title=\"Codes:{http://snomed.info/sct 734163000}\">Referral to obstetrician</span></p><p><b>subject</b>: <a href=\"Patient-patient-001.html\">Chinedu Okoro  Male, DoB: 1990-06-15 ( https://nimc.gov.ng#NIN123456789)</a></p><p><b>encounter</b>: <a href=\"Encounter-encounter-001.html\">Encounter: status = finished; class = ambulatory (ActCode#AMB); period = 2025-08-04 09:00:00+0100 --&gt; 2025-08-04 09:20:00+0100; reasonCode = Otitis media</a></p><p><b>authoredOn</b>: 2025-08-01</p><p><b>requester</b>: <a href=\"Practitioner-practitioner-001.html\">Practitioner Chinelo Okoye </a></p><p><b>reasonCode</b>: <span title=\"Codes:\">High blood pressure in pregnancy</span></p><p><b>supportingInfo</b>: <a href=\"Observation-observation-001.html\">Observation Blood pressure panel with all children optional</a></p></div>"
      },
      "status" : "active",
      "intent" : "order",
      "code" : {
        "coding" : [{
          "system" : "http://snomed.info/sct",
          "code" : "734163000",
          "display" : "Referral to obstetrician"
        }]
      },
      "subject" : {
        "reference" : "Patient/patient-001"
      },
      "encounter" : {
        "reference" : "Encounter/encounter-001"
      },
      "authoredOn" : "2025-08-01",
      "requester" : {
        "reference" : "Practitioner/practitioner-001"
      },
      "reasonCode" : [{
        "text" : "High blood pressure in pregnancy"
      }],
      "supportingInfo" : [{
        "reference" : "Observation/observation-001"
      }]
    }
  },
  {
    "fullUrl" : "urn:uuid:communication-001",
    "resource" : {
      "resourceType" : "Communication",
      "id" : "communication-001",
      "meta" : {
        "profile" : ["https://dhin.org/2025Connectathon/StructureDefinition/ng-communication"]
      },
      "text" : {
        "status" : "generated",
        "div" : "<div xmlns=\"http://www.w3.org/1999/xhtml\"><a name=\"Communication_communication-001\"> </a><p class=\"res-header-id\"><b>Generated Narrative: Communication communication-001</b></p><a name=\"communication-001\"> </a><a name=\"hccommunication-001\"> </a><div style=\"display: inline-block; background-color: #d9e0e7; padding: 6px; margin: 4px; border: 1px solid #8da1b4; border-radius: 5px; line-height: 60%\"><p style=\"margin-bottom: 0px\"/><p style=\"margin-bottom: 0px\">Profile: <a href=\"StructureDefinition-ng-communication.html\">NG Communication</a></p></div><p><b>status</b>: Completed</p><p><b>medium</b>: <span title=\"Codes:{http://terminology.hl7.org/CodeSystem/v3-ParticipationMode WRITTEN}\">written</span></p><p><b>subject</b>: <code>patient-001</code></p><p><b>sent</b>: 2025-08-05 11:00:00+0100</p><p><b>received</b>: 2025-08-05 11:03:00+0100</p><p><b>recipient</b>: <code>practitioner-001</code></p><p><b>sender</b>: <code>pharmacist-001</code></p><h3>Payloads</h3><table class=\"grid\"><tr><td style=\"display: none\">-</td><td><b>Content[x]</b></td></tr><tr><td style=\"display: none\">*</td><td>Kindly confirm dosage frequency for Amoxicillin prescription before dispensing.</td></tr></table></div>"
      },
      "status" : "completed",
      "medium" : [{
        "coding" : [{
          "system" : "http://terminology.hl7.org/CodeSystem/v3-ParticipationMode",
          "code" : "WRITTEN",
          "display" : "written"
        }]
      }],
      "subject" : {
        "reference" : "patient-001"
      },
      "sent" : "2025-08-05T11:00:00+01:00",
      "received" : "2025-08-05T11:03:00+01:00",
      "recipient" : [{
        "reference" : "practitioner-001"
      }],
      "sender" : {
        "reference" : "pharmacist-001"
      },
      "payload" : [{
        "contentString" : "Kindly confirm dosage frequency for Amoxicillin prescription before dispensing."
      }]
    }
  },
  {
    "fullUrl" : "urn:uuid:careplan-001",
    "resource" : {
      "resourceType" : "CarePlan",
      "id" : "carePlan-001",
      "meta" : {
        "profile" : ["https://dhin.org/2025Connectathon/StructureDefinition/ng-referral-careplan"]
      },
      "text" : {
        "status" : "generated",
        "div" : "<div xmlns=\"http://www.w3.org/1999/xhtml\"><a name=\"CarePlan_carePlan-001\"> </a><p class=\"res-header-id\"><b>Generated Narrative: CarePlan carePlan-001</b></p><a name=\"carePlan-001\"> </a><a name=\"hccarePlan-001\"> </a><div style=\"display: inline-block; background-color: #d9e0e7; padding: 6px; margin: 4px; border: 1px solid #8da1b4; border-radius: 5px; line-height: 60%\"><p style=\"margin-bottom: 0px\"/><p style=\"margin-bottom: 0px\">Profile: <a href=\"StructureDefinition-ng-referral-careplan.html\">NG Referral CarePlan</a></p></div><p><b>status</b>: Active</p><p><b>intent</b>: Plan</p><p><b>category</b>: <span title=\"Codes:{http://hl7.org/fhir/care-plan-category assess-plan}\">assess-plan</span></p><p><b>title</b>: Referral for High-Risk ANC Monitoring</p><p><b>description</b>: This care plan outlines scheduled follow-up and tests for a patient referred due to elevated blood pressure and proteinuria.</p><p><b>subject</b>: <code>NgPatient/patient-mnch-001</code></p><p><b>period</b>: 2025-08-01 --&gt; 2025-09-15</p><p><b>created</b>: 2025-08-01</p><p><b>author</b>: <code>NgPractitioner/practitioner-012</code></p><p><b>goal</b>: <a href=\"Goal/anc-bp-goal\">Goal/anc-bp-goal</a></p><blockquote><p><b>activity</b></p><h3>Details</h3><table class=\"grid\"><tr><td style=\"display: none\">-</td><td><b>Kind</b></td><td><b>Status</b></td><td><b>Description</b></td></tr><tr><td style=\"display: none\">*</td><td>Appointment</td><td>Scheduled</td><td>Follow-up appointment with obstetrician at secondary facility on 2025-08-05</td></tr></table></blockquote><blockquote><p><b>activity</b></p><h3>Details</h3><table class=\"grid\"><tr><td style=\"display: none\">-</td><td><b>Kind</b></td><td><b>Status</b></td><td><b>Description</b></td></tr><tr><td style=\"display: none\">*</td><td>ServiceRequest</td><td>Not Started</td><td>Request for renal function test and repeat urine protein analysis</td></tr></table></blockquote></div>"
      },
      "status" : "active",
      "intent" : "plan",
      "category" : [{
        "coding" : [{
          "system" : "http://hl7.org/fhir/care-plan-category",
          "code" : "assess-plan"
        }]
      }],
      "title" : "Referral for High-Risk ANC Monitoring",
      "description" : "This care plan outlines scheduled follow-up and tests for a patient referred due to elevated blood pressure and proteinuria.",
      "subject" : {
        "reference" : "NgPatient/patient-mnch-001"
      },
      "period" : {
        "start" : "2025-08-01",
        "end" : "2025-09-15"
      },
      "created" : "2025-08-01",
      "author" : {
        "reference" : "NgPractitioner/practitioner-012"
      },
      "goal" : [{
        "reference" : "Goal/anc-bp-goal"
      }],
      "activity" : [{
        "detail" : {
          "kind" : "Appointment",
          "status" : "scheduled",
          "description" : "Follow-up appointment with obstetrician at secondary facility on 2025-08-05"
        }
      },
      {
        "detail" : {
          "kind" : "ServiceRequest",
          "status" : "not-started",
          "description" : "Request for renal function test and repeat urine protein analysis"
        }
      }]
    }
  },
  {
    "fullUrl" : "urn:uuid:condition-001",
    "resource" : {
      "resourceType" : "Condition",
      "id" : "condition-001",
      "meta" : {
        "profile" : ["https://dhin.org/2025Connectathon/StructureDefinition/ng-condition"]
      },
      "text" : {
        "status" : "generated",
        "div" : "<div xmlns=\"http://www.w3.org/1999/xhtml\"><a name=\"Condition_condition-001\"> </a><p class=\"res-header-id\"><b>Generated Narrative: Condition condition-001</b></p><a name=\"condition-001\"> </a><a name=\"hccondition-001\"> </a><div style=\"display: inline-block; background-color: #d9e0e7; padding: 6px; margin: 4px; border: 1px solid #8da1b4; border-radius: 5px; line-height: 60%\"><p style=\"margin-bottom: 0px\"/><p style=\"margin-bottom: 0px\">Profile: <a href=\"StructureDefinition-ng-condition.html\">NG Condition</a></p></div><p><b>clinicalStatus</b>: <span title=\"Codes:{http://terminology.hl7.org/CodeSystem/condition-clinical active}\">Active</span></p><p><b>verificationStatus</b>: <span title=\"Codes:{http://terminology.hl7.org/CodeSystem/condition-ver-status confirmed}\">Confirmed</span></p><p><b>category</b>: <span title=\"Codes:{http://terminology.hl7.org/CodeSystem/condition-category encounter-diagnosis}\">Encounter Diagnosis</span></p><p><b>code</b>: <span title=\"Codes:{http://snomed.info/sct 65363002}\">Otitis media</span></p><p><b>subject</b>: <code>NgPatient/patient-0011</code></p><p><b>onset</b>: 2025-08-04</p><p><b>recordedDate</b>: 2025-08-04</p><p><b>recorder</b>: <code>NgPractitioner/practitioner-0011</code></p></div>"
      },
      "clinicalStatus" : {
        "coding" : [{
          "system" : "http://terminology.hl7.org/CodeSystem/condition-clinical",
          "code" : "active"
        }]
      },
      "verificationStatus" : {
        "coding" : [{
          "system" : "http://terminology.hl7.org/CodeSystem/condition-ver-status",
          "code" : "confirmed"
        }]
      },
      "category" : [{
        "coding" : [{
          "system" : "http://terminology.hl7.org/CodeSystem/condition-category",
          "code" : "encounter-diagnosis"
        }]
      }],
      "code" : {
        "coding" : [{
          "system" : "http://snomed.info/sct",
          "code" : "65363002",
          "display" : "Otitis media"
        }]
      },
      "subject" : {
        "reference" : "NgPatient/patient-0011"
      },
      "onsetDateTime" : "2025-08-04",
      "recordedDate" : "2025-08-04",
      "recorder" : {
        "reference" : "NgPractitioner/practitioner-0011"
      }
    }
  },
  {
    "fullUrl" : "urn:uuid:observation-001",
    "resource" : {
      "resourceType" : "Observation",
      "id" : "observation-001",
      "meta" : {
        "profile" : ["https://dhin.org/2025Connectathon/StructureDefinition/ng-referral-observation"]
      },
      "text" : {
        "status" : "generated",
        "div" : "<div xmlns=\"http://www.w3.org/1999/xhtml\"><a name=\"Observation_observation-001\"> </a><p class=\"res-header-id\"><b>Generated Narrative: Observation observation-001</b></p><a name=\"observation-001\"> </a><a name=\"hcobservation-001\"> </a><div style=\"display: inline-block; background-color: #d9e0e7; padding: 6px; margin: 4px; border: 1px solid #8da1b4; border-radius: 5px; line-height: 60%\"><p style=\"margin-bottom: 0px\"/><p style=\"margin-bottom: 0px\">Profile: <a href=\"StructureDefinition-ng-referral-observation.html\">NG Referral Observation</a></p></div><p><b>status</b>: Final</p><p><b>category</b>: <span title=\"Codes:{http://terminology.hl7.org/CodeSystem/observation-category vital-signs}\">Vital Signs</span></p><p><b>code</b>: <span title=\"Codes:{http://loinc.org 85354-9}\">Blood pressure panel with all children optional</span></p><p><b>subject</b>: <code>NgPatient/patient-mnch-001</code></p><p><b>effective</b>: 2025-08-02 09:30:00+0100</p><p><b>performer</b>: <a href=\"Practitioner/practitioner-012\">Practitioner/practitioner-012</a></p><p><b>value</b>: 125 mmHg<span style=\"background: LightGoldenRodYellow\"> (Details: UCUM  codemm[Hg] = 'mm[Hg]')</span></p><p><b>interpretation</b>: <span title=\"Codes:{http://terminology.hl7.org/CodeSystem/v3-ObservationInterpretation H}\">High</span></p><p><b>note</b>: </p><blockquote><div><p>Elevated BP noted. Referral to hospital initiated.</p>\n</div></blockquote></div>"
      },
      "status" : "final",
      "category" : [{
        "coding" : [{
          "system" : "http://terminology.hl7.org/CodeSystem/observation-category",
          "code" : "vital-signs"
        }]
      }],
      "code" : {
        "coding" : [{
          "system" : "http://loinc.org",
          "code" : "85354-9",
          "display" : "Blood pressure panel with all children optional"
        }]
      },
      "subject" : {
        "reference" : "NgPatient/patient-mnch-001"
      },
      "effectiveDateTime" : "2025-08-02T09:30:00+01:00",
      "performer" : [{
        "reference" : "Practitioner/practitioner-012"
      }],
      "valueQuantity" : {
        "value" : 125,
        "unit" : "mmHg",
        "system" : "http://unitsofmeasure.org",
        "code" : "mm[Hg]"
      },
      "interpretation" : [{
        "coding" : [{
          "system" : "http://terminology.hl7.org/CodeSystem/v3-ObservationInterpretation",
          "code" : "H",
          "display" : "High"
        }]
      }],
      "note" : [{
        "text" : "Elevated BP noted. Referral to hospital initiated."
      }]
    }
  },
  {
    "fullUrl" : "urn:uuid:encounter-001",
    "resource" : {
      "resourceType" : "Encounter",
      "id" : "encounter-001",
      "meta" : {
        "profile" : ["https://dhin.org/2025Connectathon/StructureDefinition/ng-prescription-encounter"]
      },
      "text" : {
        "status" : "generated",
        "div" : "<div xmlns=\"http://www.w3.org/1999/xhtml\"><a name=\"Encounter_encounter-001\"> </a><p class=\"res-header-id\"><b>Generated Narrative: Encounter encounter-001</b></p><a name=\"encounter-001\"> </a><a name=\"hcencounter-001\"> </a><div style=\"display: inline-block; background-color: #d9e0e7; padding: 6px; margin: 4px; border: 1px solid #8da1b4; border-radius: 5px; line-height: 60%\"><p style=\"margin-bottom: 0px\"/><p style=\"margin-bottom: 0px\">Profile: <a href=\"StructureDefinition-ng-prescription-encounter.html\">NG Encounter</a></p></div><p><b>status</b>: Finished</p><p><b>class</b>: <a href=\"http://terminology.hl7.org/6.5.0/CodeSystem-v3-ActCode.html#v3-ActCode-AMB\">ActCode AMB</a>: ambulatory</p><p><b>subject</b>: <a href=\"Patient-patient-001.html\">Chinedu Okoro  Male, DoB: 1990-06-15 ( https://nimc.gov.ng#NIN123456789)</a></p><p><b>period</b>: 2025-08-04 09:00:00+0100 --&gt; 2025-08-04 09:20:00+0100</p><p><b>reasonCode</b>: <span title=\"Codes:{http://snomed.info/sct 65363002}\">Otitis media</span></p><p><b>serviceProvider</b>: <code>NgOrganization/org-hospital</code></p></div>"
      },
      "status" : "finished",
      "class" : {
        "system" : "http://terminology.hl7.org/CodeSystem/v3-ActCode",
        "code" : "AMB",
        "display" : "ambulatory"
      },
      "subject" : {
        "reference" : "Patient/patient-001"
      },
      "period" : {
        "start" : "2025-08-04T09:00:00+01:00",
        "end" : "2025-08-04T09:20:00+01:00"
      },
      "reasonCode" : [{
        "coding" : [{
          "system" : "http://snomed.info/sct",
          "code" : "65363002",
          "display" : "Otitis media"
        }]
      }],
      "serviceProvider" : {
        "reference" : "NgOrganization/org-hospital"
      }
    }
  },
  {
    "fullUrl" : "urn:uuid:organization-001",
    "resource" : {
      "resourceType" : "Organization",
      "id" : "organization-001",
      "meta" : {
        "profile" : ["https://dhin.org/2025Connectathon/StructureDefinition/ng-imm-organization"]
      },
      "text" : {
        "status" : "generated",
        "div" : "<div xmlns=\"http://www.w3.org/1999/xhtml\"><a name=\"Organization_organization-001\"> </a><p class=\"res-header-id\"><b>Generated Narrative: Organization organization-001</b></p><a name=\"organization-001\"> </a><a name=\"hcorganization-001\"> </a><div style=\"display: inline-block; background-color: #d9e0e7; padding: 6px; margin: 4px; border: 1px solid #8da1b4; border-radius: 5px; line-height: 60%\"><p style=\"margin-bottom: 0px\"/><p style=\"margin-bottom: 0px\">Profile: <a href=\"StructureDefinition-ng-imm-organization.html\">NG Organization</a></p></div><p><b>identifier</b>: <code>https://herfama.lagos.ng</code>/HF-0001</p><p><b>active</b>: true</p><p><b>type</b>: <span title=\"Codes:{http://terminology.hl7.org/CodeSystem/organization-type prov}\">Healthcare Provider</span></p><p><b>name</b>: Sunlight Medical Center</p><p><b>telecom</b>: <a href=\"tel:+2348012345678\">+2348012345678</a></p><p><b>address</b>: 12 Ikoyi Crescent Lagos Lagos </p></div>"
      },
      "identifier" : [{
        "system" : "https://herfama.lagos.ng",
        "value" : "HF-0001"
      }],
      "active" : true,
      "type" : [{
        "coding" : [{
          "system" : "http://terminology.hl7.org/CodeSystem/organization-type",
          "code" : "prov",
          "display" : "Healthcare Provider"
        }]
      }],
      "name" : "Sunlight Medical Center",
      "telecom" : [{
        "system" : "phone",
        "value" : "+2348012345678"
      }],
      "address" : [{
        "line" : ["12 Ikoyi Crescent"],
        "city" : "Lagos",
        "district" : "ikeja",
        "state" : "Lagos"
      }]
    }
  },
  {
    "fullUrl" : "urn:uuid:practitioner-001",
    "resource" : {
      "resourceType" : "Practitioner",
      "id" : "practitioner-001",
      "meta" : {
        "profile" : ["https://dhin.org/2025Connectathon/StructureDefinition/NgPractitioner"]
      },
      "text" : {
        "status" : "generated",
        "div" : "<div xmlns=\"http://www.w3.org/1999/xhtml\"><a name=\"Practitioner_practitioner-001\"> </a><p class=\"res-header-id\"><b>Generated Narrative: Practitioner practitioner-001</b></p><a name=\"practitioner-001\"> </a><a name=\"hcpractitioner-001\"> </a><div style=\"display: inline-block; background-color: #d9e0e7; padding: 6px; margin: 4px; border: 1px solid #8da1b4; border-radius: 5px; line-height: 60%\"><p style=\"margin-bottom: 0px\"/><p style=\"margin-bottom: 0px\">Profile: <a href=\"StructureDefinition-NgPractitioner.html\">NG Practitioner</a></p></div><p><b>identifier</b>: <code>https://mdcn.gov.ng</code>/MDCN-457812</p><p><b>active</b>: true</p><p><b>name</b>: Chinelo Okoye </p><p><b>telecom</b>: ph: 08011223344</p><p><b>birthDate</b>: 1982-03-10</p><h3>Qualifications</h3><table class=\"grid\"><tr><td style=\"display: none\">-</td><td><b>Code</b></td><td><b>Period</b></td><td><b>Issuer</b></td></tr><tr><td style=\"display: none\">*</td><td><span title=\"Codes:\">MEDCERT-2023</span></td><td>2023-01-01 --&gt; 2028-12-31</td><td><a href=\"Organization-organization-001.html\">Organization Sunlight Medical Center</a></td></tr></table></div>"
      },
      "identifier" : [{
        "system" : "https://mdcn.gov.ng",
        "value" : "MDCN-457812"
      }],
      "active" : true,
      "name" : [{
        "family" : "Okoye",
        "given" : ["Chinelo"]
      }],
      "telecom" : [{
        "system" : "phone",
        "value" : "08011223344"
      }],
      "birthDate" : "1982-03-10",
      "qualification" : [{
        "code" : {
          "text" : "MEDCERT-2023"
        },
        "period" : {
          "start" : "2023-01-01",
          "end" : "2028-12-31"
        },
        "issuer" : {
          "reference" : "Organization/organization-001"
        }
      }]
    }
  }]
}